"success","timeout","failed_images","failed_audio","failed_video","trial_type","trial_index","time_elapsed","internal_node_id","time","subject","rt","response","test_part","stimulus","slider_start","value","view_history","rndSet","rndV1","rndV2","videoA","videoB","videoStimulus"
"true","false","[]","[]","[]","preload","0","11382","0.0-0.0","2025-06-05T16:52:51.361Z","4_0000p6","","","","","","","","","","","","",""
"","","","","","survey","1","29075","0.0-1.0","2025-06-05T16:52:51.361Z","4_0000p6","17661","{""testrun"":""Pilot (Test run)""}","testrun","","","","","","","","","",""
"","","","","","survey-text","2","204373","0.0-2.0","2025-06-05T16:52:51.361Z","4_0000p6","175269","{""subject_id"":""4_0000p6""}","welcome","","","","","","","","","",""
"","","","","","html-slider-response","3","213757","0.0-3.0-0.0","2025-06-05T16:52:51.361Z","4_0000p6","9380","87","successBelief","<p>Before we begin, we would like to ask you about your attitude to the experiment.</p>
            <p style=""font-weight: bold;"">How likely do you think it is that you personally will succeed in your precognitive test today?</p>","50","","","","","","","",""
"","","","","","html-slider-response","4","216517","0.0-3.0-1.0","2025-06-05T16:52:51.361Z","4_0000p6","2759","100","comfortable","<p style=""font-weight: bold;"">Do you feel comfortable with the Ganzfeld setup?</p>","50","","","","","","","",""
"","","","","","html-button-response","5","262229","0.0-3.0-2.0","2025-06-05T16:52:51.361Z","4_0000p6","45710","0","restIntro","<p>Next we would like you to rest in a reclining chair for 3 minutes. Press Continue when you are ready, then make yourself comfortable in the chair, and rest until you hear a beep signaling the end of the three minute interval. Afterwards you can return to this program to proceed.</p>","","","","","","","","",""
"","","","","","html-keyboard-response","6","444747","0.0-3.0-3.0","2025-06-05T16:52:51.361Z","4_0000p6","null","null","rest","","","","","","","","","",""
"","","","","","call-function","7","444748","0.0-3.0-4.0-0.0","2025-06-05T16:52:51.361Z","4_0000p6","","","","","","","","","","","","",""
"","","","","","survey","8","539145","0.0-3.0-4.0-1.0","2025-06-05T16:52:51.361Z","4_0000p6","94312","{""PCIRest1"":4,""PCIRest2"":6,""PCIRest3"":0,""PCIRest4"":6,""PCIRest5"":5,""PCIRest6"":4,""PCIRest7"":0,""PCIRest8"":1,""PCIRest9"":1,""PCIRest10"":2,""PCIRest11"":4,""PCIRest12"":4,""PCIRest13"":4,""PCIIntro"":null}","PCIRest","","","","","","","","","",""
"","","","","","call-function","9","539147","0.0-3.0-4.0-2.0","2025-06-05T16:52:51.361Z","4_0000p6","","","","","","","","","","","","",""
"","","","","","instructions","10","578030","0.0-3.0-5.0","2025-06-05T16:52:51.361Z","4_0000p6","38881","","instructions1","","","","[{""page_index"":0,""viewing_time"":38881}]","","","","","",""
"","","","","","html-button-response","11","787271","0.0-3.0-6.0","2025-06-05T16:52:51.361Z","4_0000p6","209238","0","GanzfeldIntro","<p>Please tell the experimenter to assist you with the Ganzfeld equipment. The experimenter will click ""Continue"" when you are ready to begin.</p>
            <p>The audio level for the ganzfeld can be adjusted while playing the audio sample below.</p>
            <audio controls>
                <source src=""../audio/pinknoise_7min_128.mp3"" type=""audio/mpeg"">
                Your browser does not support the audio element.
            </audio>","","","","","","","","",""
"","","","","","audio-keyboard-response","12","2977481","0.0-3.0-7.0","2025-06-05T16:52:51.361Z","4_0000p6","null","null","GanzfeldPlay","../audio/English_Ganzfeld_Induction_v4.mp3","","","","","","","","",""
"","","","","","call-function","13","2977484","0.0-3.0-8.0-0.0","2025-06-05T16:52:51.361Z","4_0000p6","","","","","","","","","","","","",""
"","","","","","survey","14","3148631","0.0-3.0-8.0-1.0","2025-06-05T16:52:51.361Z","4_0000p6","171064","{""PCIGanz1"":6,""PCIGanz2"":4,""PCIGanz3"":1,""PCIGanz4"":4,""PCIGanz5"":6,""PCIGanz6"":0,""PCIGanz7"":2,""PCIGanz8"":0,""PCIGanz9"":1,""PCIGanz10"":0,""PCIGanz11"":4,""PCIGanz12"":4,""PCIGanz13"":5,""PCIIntro"":null}","PCIGanzfeld","","","","","","","","","",""
"","","","","","call-function","15","3148632","0.0-3.0-8.0-2.0","2025-06-05T16:52:51.361Z","4_0000p6","","","","","","","","","","","","",""
"","","","","","survey","16","3185772","0.0-3.0-9.0","2025-06-05T16:52:51.361Z","4_0000p6","37121","{""DSSQ"":{""DSSQ01"":4,""DSSQ02"":5,""DSSQ03"":2,""DSSQ04"":3,""DSSQ05"":3,""DSSQ06"":1,""DSSQ07"":1,""DSSQ08"":1},""DSSQIntro"":null}","DSSQ","","","","","","","","","",""
"","","","","","html-slider-response","17","3192651","0.0-3.0-10.0","2025-06-05T16:52:51.361Z","4_0000p6","6876","81","time1","<p><i>Please answer the following two questions about your experiences during the 30 minutes of Ganzfeld.</i></p>
            <p>1. How often did you think about time <b>during the task</b>?</p>","50","","","","","","","",""
"","","","","","html-slider-response","18","3195475","0.0-3.0-11.0","2025-06-05T16:52:51.361Z","4_0000p6","2823","90","time2","<p><i>Please answer the following two questions about your experiences during the 30 minutes of Ganzfeld.</i></p>
            <p>2. How fast did time pass for you <b>during the task</b>?</p>","50","","","","","","","",""
"","","","","","instructions","19","3213411","0.0-4.0","2025-06-05T16:52:51.361Z","4_0000p6","17935","","instructions2","","","","[{""page_index"":0,""viewing_time"":17935}]","","","","","",""
"","","","","","html-button-response","20","3215707","0.0-5.0","2025-06-05T16:52:51.361Z","4_0000p6","2295","0","videoIntro","<p>Now we would like you to watch two short videos and rate how similar they are to your Ganzfeld experience.</p><p>Please click ""Continue"" when you are ready.</p>","","","","7","3","2","../video/15 D Mushroom Taking.mp4","../video/15 C Falling Frogs.mp4",""
"true","false","[]","[]","[]","preload","21","3271330","0.0-6.0","2025-06-05T16:52:51.361Z","4_0000p6","","","","","","","","","","","","",""
"","","","","","survey-html-form","22","3452660","0.0-7.0-0.0","2025-06-05T16:52:51.361Z","4_0000p6","181323","{""ClipA"":""70"",""ClipB"":""60""}","videoRating","","","","","","","","","",""
"","","","","","html-button-response","23","3455764","0.0-8.0","2025-06-05T16:52:51.361Z","4_0000p6","3102","0","videoTargetIntro","<p>We will now select the target video.</p><p>Please watch the selected video a second time.</p>","","","","","","","","","[""../video/15 D Mushroom Taking.mp4""]"
"","","","","","video-keyboard-response","24","3518362","0.0-9.0","2025-06-05T16:52:51.361Z","4_0000p6","null","null","videoTarget","[""../video/15 D Mushroom Taking.mp4""]","","","","","","","","",""
