"success","timeout","failed_images","failed_audio","failed_video","trial_type","trial_index","time_elapsed","internal_node_id","time","subject","rt","response","test_part","stimulus","slider_start","value","view_history","rndSet","rndV1","rndV2","videoA","videoB","videoStimulus"
"true","false","[]","[]","[]","preload","0","20483","0.0-0.0","2025-02-10T13:33:58.152Z","6_tpbltz","","","","","","","","","","","","",""
"","","","","","survey","1","26632","0.0-1.0","2025-02-10T13:33:58.152Z","6_tpbltz","6085","{""testrun"":""Experiment""}","testrun","","","","","","","","","",""
"","","","","","survey-text","2","361485","0.0-2.0","2025-02-10T13:33:58.152Z","6_tpbltz","334827","{""subject_id"":""6_tpbltz""}","welcome","","","","","","","","","",""
"","","","","","html-slider-response","3","376693","0.0-3.0","2025-02-10T13:33:58.152Z","6_tpbltz","15201","75","successBelief","<p>Before we begin, we would like to ask you about your attitude to the experiment.</p>
            <p style=""font-weight: bold;"">How likely do you think it is that you personally will succeed in your precognitive test today?</p>","50","","","","","","","",""
"","","","","","html-slider-response","4","381892","0.0-4.0","2025-02-10T13:33:58.152Z","6_tpbltz","5197","76","comfortable","<p style=""font-weight: bold;"">Do you feel comfortable with the Ganzfeld setup?</p>","50","","","","","","","",""
"","","","","","html-button-response","5","398390","0.0-5.0","2025-02-10T13:33:58.152Z","6_tpbltz","16495","0","restIntro","<p>Next we would like you to rest in a reclining chair for 3 minutes. Press Continue when you are ready, then make yourself comfortable in the chair, and rest until you hear a beep signaling the end of the three minute interval. Afterwards you can return to this program to proceed.</p>","","","","","","","","",""
"","","","","","html-keyboard-response","6","580907","0.0-6.0","2025-02-10T13:33:58.152Z","6_tpbltz","null","null","rest","","","","","","","","","",""
"","","","","","call-function","7","580911","0.0-7.0-0.0","2025-02-10T13:33:58.152Z","6_tpbltz","","","","","","","","","","","","",""
"","","","","","survey","8","697684","0.0-7.0-1.0","2025-02-10T13:33:58.152Z","6_tpbltz","116623","{""PCIRest1"":5,""PCIRest2"":3,""PCIRest3"":5,""PCIRest4"":4,""PCIRest5"":1,""PCIRest6"":3,""PCIRest7"":5,""PCIRest8"":2,""PCIRest9"":1,""PCIRest10"":5,""PCIRest11"":1,""PCIRest12"":3,""PCIRest13"":1,""PCIIntro"":null}","PCIRest","","","","","","","","","",""
"","","","","","call-function","9","697688","0.0-7.0-2.0","2025-02-10T13:33:58.152Z","6_tpbltz","","","","","","","","","","","","",""
"","","","","","instructions","10","780924","0.0-8.0","2025-02-10T13:33:58.152Z","6_tpbltz","83231","","instructions1","","","","[{""page_index"":0,""viewing_time"":83231}]","","","","","",""
"","","","","","html-button-response","11","918991","0.0-9.0","2025-02-10T13:33:58.152Z","6_tpbltz","138028","0","GanzfeldIntro","<p>Please tell the experimenter to assist you with the Ganzfeld equipment. The experimenter will click ""Continue"" when you are ready to begin.</p>
            <p>The audio level for the ganzfeld can be adjusted while playing the audio sample below.</p>
            <audio controls>
                <source src=""../audio/pinknoise_7min_128.mp3"" type=""audio/mpeg"">
                Your browser does not support the audio element.
            </audio>","","","","","","","","",""
"","","","","","audio-keyboard-response","12","3109106","0.0-10.0","2025-02-10T13:33:58.152Z","6_tpbltz","null","null","GanzfeldPlay","../audio/English_Ganzfeld_Induction_v4.mp3","","","","","","","","",""
"","","","","","call-function","13","3109111","0.0-11.0-0.0","2025-02-10T13:33:58.152Z","6_tpbltz","","","","","","","","","","","","",""
"","","","","","survey","14","3298595","0.0-11.0-1.0","2025-02-10T13:33:58.152Z","6_tpbltz","189236","{""PCIGanz1"":5,""PCIGanz2"":2,""PCIGanz3"":2,""PCIGanz4"":5,""PCIGanz5"":4,""PCIGanz6"":4,""PCIGanz7"":2,""PCIGanz8"":2,""PCIGanz9"":1,""PCIGanz10"":3,""PCIGanz11"":1,""PCIGanz12"":3,""PCIGanz13"":2,""PCIIntro"":null}","PCIGanzfeld","","","","","","","","","",""
"","","","","","call-function","15","3298598","0.0-11.0-2.0","2025-02-10T13:33:58.152Z","6_tpbltz","","","","","","","","","","","","",""
"","","","","","survey","16","3364614","0.0-12.0","2025-02-10T13:33:58.152Z","6_tpbltz","65962","{""DSSQ"":{""DSSQ01"":2,""DSSQ02"":1,""DSSQ03"":1,""DSSQ04"":1,""DSSQ05"":2,""DSSQ07"":2,""DSSQ06"":3,""DSSQ08"":1},""DSSQIntro"":null}","DSSQ","","","","","","","","","",""
"","","","","","html-slider-response","17","3375219","0.0-13.0","2025-02-10T13:33:58.152Z","6_tpbltz","10600","26","time1","<p><i>Please answer the following two questions about your experiences during the 30 minutes of Ganzfeld.</i></p>
            <p>1. How often did you think about time <b>during the task</b>?</p>","50","","","","","","","",""
"","","","","","html-slider-response","18","3388737","0.0-14.0","2025-02-10T13:33:58.152Z","6_tpbltz","13514","29","time2","<p><i>Please answer the following two questions about your experiences during the 30 minutes of Ganzfeld.</i></p>
            <p>2. How fast did time pass for you <b>during the task</b>?</p>","50","","","","","","","",""
"","","","","","instructions","19","3514361","0.0-15.0","2025-02-10T13:33:58.152Z","6_tpbltz","125622","","instructions2","","","","[{""page_index"":0,""viewing_time"":125622}]","","","","","",""
"","","","","","html-button-response","20","3539504","0.0-16.0","2025-02-10T13:33:58.152Z","6_tpbltz","25142","0","videoIntro","<p>Now we would like you to watch two short videos and rate how similar they are to your Ganzfeld experience.</p><p>Please click ""Continue"" when you are ready.</p>","","","","13","3","1","../video/21 D Swing Time.mp4","../video/21 B Into the Storm.mp4",""
"true","false","[]","[]","[]","preload","21","3540249","0.0-17.0","2025-02-10T13:33:58.152Z","6_tpbltz","","","","","","","","","","","","",""
"","","","","","survey-html-form","22","3708988","0.0-18.0-0.0","2025-02-10T13:33:58.152Z","6_tpbltz","168709","{""ClipA"":""10"",""ClipB"":""31""}","videoRating","","","","","","","","","",""
"","","","","","html-button-response","23","3720010","0.0-19.0","2025-02-10T13:33:58.152Z","6_tpbltz","11018","0","videoTargetIntro","<p>We will now select the target video.</p><p>Please watch the selected video a second time.</p>","","","","","","","","","[""../video/21 B Into the Storm.mp4""]"
"","","","","","video-keyboard-response","24","3778111","0.0-20.0","2025-02-10T13:33:58.152Z","6_tpbltz","null","null","videoTarget","[""../video/21 B Into the Storm.mp4""]","","","","","","","","",""
