"success","timeout","failed_images","failed_audio","failed_video","trial_type","trial_index","time_elapsed","internal_node_id","time","subject","rt","response","test_part","stimulus","slider_start","value","view_history","rndSet","rndV1","rndV2","videoA","videoB","videoStimulus"
"true","false","[]","[]","[]","preload","0","31450","0.0-0.0","2026-02-04T11:55:39.897Z","1_000034","","","","","","","","","","","","",""
"","","","","","survey","1","579615","0.0-1.0","2026-02-04T11:55:39.897Z","1_000034","547681","{""testrun"":""Experiment""}","testrun","","","","","","","","","",""
"","","","","","survey-text","2","668274","0.0-2.0","2026-02-04T11:55:39.897Z","1_000034","88623","{""subject_id"":""1_000034""}","welcome","","","","","","","","","",""
"","","","","","html-slider-response","3","735000","0.0-3.0-0.0","2026-02-04T11:55:39.897Z","1_000034","66721","50","successBelief","<p>Innan vi börjar skulle vi vilja fråga dig om din inställning till experimentet.</p>
            <p style=""font-weight: bold;"">Hur sannolikt tror du att det är att du personligen kommer att lyckas med ditt prekognitiva test idag?</p>","50","","","","","","","",""
"","","","","","html-slider-response","4","739920","0.0-3.0-1.0","2026-02-04T11:55:39.897Z","1_000034","4918","100","comfortable","<p style=""font-weight: bold;"">Känner du dig bekväm med Ganzfeld-miljön?</p>","50","","","","","","","",""
"","","","","","html-button-response","5","759921","0.0-3.0-2.0","2026-02-04T11:55:39.897Z","1_000034","19998","0","restIntro","<p>Härnäst vill vi att du vilar i en lutande fåtölj i 3 minuter. Tryck på ""Nästa"" när du är redo, sätt dig bekvämt tillrätta i fåtöljen och vila tills du hör ett pip som signalerar slutet på treminutersintervallet. Därefter kan du återgå till det här programmet för att fortsätta.</p>","","","","","","","","",""
"","","","","","html-keyboard-response","6","942479","0.0-3.0-3.0","2026-02-04T11:55:39.897Z","1_000034","null","null","rest","","","","","","","","","",""
"","","","","","call-function","7","942481","0.0-3.0-4.0-0.0","2026-02-04T11:55:39.897Z","1_000034","","","","","","","","","","","","",""
"","","","","","survey","8","1048006","0.0-3.0-4.0-1.0","2026-02-04T11:55:39.897Z","1_000034","105402","{""PCIRest1"":4,""PCIRest2"":0,""PCIRest3"":6,""PCIRest4"":5,""PCIRest5"":0,""PCIRest6"":6,""PCIRest7"":6,""PCIRest8"":5,""PCIRest9"":2,""PCIRest10"":6,""PCIRest11"":0,""PCIRest12"":0,""PCIRest13"":0,""PCIIntro"":null}","PCIRest","","","","","","","","","",""
"","","","","","call-function","9","1048008","0.0-3.0-4.0-2.0","2026-02-04T11:55:39.897Z","1_000034","","","","","","","","","","","","",""
"","","","","","instructions","10","1258160","0.0-3.0-5.0","2026-02-04T11:55:39.897Z","1_000034","210151","","instructions1","","","","[{""page_index"":0,""viewing_time"":210150}]","","","","","",""
"","","","","","html-button-response","11","1537105","0.0-3.0-6.0","2026-02-04T11:55:39.897Z","1_000034","278939","0","GanzfeldIntro","<p>Säg åt försöksledaren att hjälpa dig med Ganzfeld-utrustningen. Försöksledaren kommer att klicka på Nästa när du är redo att börja.</p>
            <p>Ljudnivån för Ganzfeld kan justeras medan du spelar upp ljud-exemplet nedan.</p>
            <audio controls>
                <source src=""../audio/pinknoise_7min_128.mp3"" type=""audio/mpeg"">
                Your browser does not support the audio element.
            </audio>","","","","","","","","",""
"","","","","","audio-keyboard-response","12","3727230","0.0-3.0-7.0","2026-02-04T11:55:39.897Z","1_000034","null","null","GanzfeldPlay","../audio/English_Ganzfeld_Induction_v4.mp3","","","","","","","","",""
"","","","","","call-function","13","3727232","0.0-3.0-8.0-0.0","2026-02-04T11:55:39.897Z","1_000034","","","","","","","","","","","","",""
"","","","","","survey","14","3984621","0.0-3.0-8.0-1.0","2026-02-04T11:55:39.897Z","1_000034","257273","{""PCIGanz1"":5,""PCIGanz2"":1,""PCIGanz3"":0,""PCIGanz4"":5,""PCIGanz5"":4,""PCIGanz6"":2,""PCIGanz7"":0,""PCIGanz8"":2,""PCIGanz9"":1,""PCIGanz10"":2,""PCIGanz11"":3,""PCIGanz12"":2,""PCIGanz13"":4,""PCIIntro"":null}","PCIGanzfeld","","","","","","","","","",""
"","","","","","call-function","15","3984623","0.0-3.0-8.0-2.0","2026-02-04T11:55:39.897Z","1_000034","","","","","","","","","","","","",""
"","","","","","survey","16","4051996","0.0-3.0-9.0","2026-02-04T11:55:39.897Z","1_000034","67345","{""DSSQ"":{""DSSQ01"":3,""DSSQ02"":1,""DSSQ03"":3,""DSSQ04"":3,""DSSQ05"":1,""DSSQ06"":3,""DSSQ07"":2,""DSSQ08"":2},""DSSQIntro"":null}","DSSQ","","","","","","","","","",""
"","","","","","html-slider-response","17","4058910","0.0-3.0-10.0","2026-02-04T11:55:39.897Z","1_000034","6910","5","time1","<p><i>Vänligen besvara följande två frågor om dina upplevelser under de 30 minuterna av Ganzfeld.</i></p>
            <p>1. Hur ofta tänkte du på tiden <b>under uppgiften</b>?</p>","50","","","","","","","",""
"","","","","","html-slider-response","18","4063398","0.0-3.0-11.0","2026-02-04T11:55:39.897Z","1_000034","4485","100","time2","<p><i>Vänligen besvara följande två frågor om dina upplevelser under de 30 minuterna av Ganzfeld.</i></p>
            <p>2. Hur snabbt gick tiden för dig <b>under uppgiften</b>?</p>","50","","","","","","","",""
"","","","","","instructions","19","4181223","0.0-4.0","2026-02-04T11:55:39.897Z","1_000034","117823","","instructions2","","","","[{""page_index"":0,""viewing_time"":117822}]","","","","","",""
"","","","","","html-button-response","20","4208094","0.0-5.0","2026-02-04T11:55:39.897Z","1_000034","26869","0","videoIntro","<p>Nu vill vi att du tittar på två korta videoklipp och bedömer hur lika de är din Ganzfeld-upplevelse.</p>
            <p>Klicka på ""Nästa"" för att fortsätta.</p>","","","","12","2","0","../video/20 C The Terror.mp4","../video/20 A Saloon Tension.mp4",""
"true","false","[]","[]","[]","preload","21","4210536","0.0-6.0","2026-02-04T11:55:39.897Z","1_000034","","","","","","","","","","","","",""
"","","","","","survey-html-form","22","4456185","0.0-7.0-0.0","2026-02-04T11:55:39.897Z","1_000034","245634","{""ClipA"":""80"",""ClipB"":""20""}","videoRating","","","","","","","","","",""
"","","","","","html-button-response","23","4459902","0.0-8.0","2026-02-04T11:55:39.897Z","1_000034","3714","0","videoTargetIntro","<p>Vi kommer nu att visa det klipp som är måltavlan.</p><p>Vänligen titta noggrant på hela klippet en andra gång.</p>","","","","","","","","","[""../video/20 C The Terror.mp4""]"
"","","","","","video-keyboard-response","24","4524974","0.0-9.0","2026-02-04T11:55:39.897Z","1_000034","null","null","videoTarget","[""../video/20 C The Terror.mp4""]","","","","","","","","",""
