"success","timeout","failed_images","failed_audio","failed_video","trial_type","trial_index","time_elapsed","internal_node_id","time","subject","rt","response","test_part","stimulus","slider_start","value","view_history","rndSet","rndV1","rndV2","videoA","videoB","videoStimulus"
"true","false","[]","[]","[]","preload","0","27830","0.0-0.0","2025-09-04T13:17:16.420Z","1_000015","","","","","","","","","","","","",""
"","","","","","survey","1","39923","0.0-1.0","2025-09-04T13:17:16.420Z","1_000015","11847","{""testrun"":""Experiment""}","testrun","","","","","","","","","",""
"","","","","","survey-text","2","589940","0.0-2.0","2025-09-04T13:17:16.420Z","1_000015","550003","{""subject_id"":""1_000015""}","welcome","","","","","","","","","",""
"","","","","","html-slider-response","3","607075","0.0-3.0-0.0","2025-09-04T13:17:16.420Z","1_000015","17083","39","successBelief","<p>Before we begin, we would like to ask you about your attitude to the experiment.</p>
            <p style=""font-weight: bold;"">How likely do you think it is that you personally will succeed in your precognitive test today?</p>","50","","","","","","","",""
"","","","","","html-slider-response","4","611907","0.0-3.0-1.0","2025-09-04T13:17:16.420Z","1_000015","4829","100","comfortable","<p style=""font-weight: bold;"">Do you feel comfortable with the Ganzfeld setup?</p>","50","","","","","","","",""
"","","","","","html-button-response","5","649451","0.0-3.0-2.0","2025-09-04T13:17:16.420Z","1_000015","37542","0","restIntro","<p>Next we would like you to rest in a reclining chair for 3 minutes. Press Continue when you are ready, then make yourself comfortable in the chair, and rest until you hear a beep signaling the end of the three minute interval. Afterwards you can return to this program to proceed.</p>","","","","","","","","",""
"","","","","","html-keyboard-response","6","832016","0.0-3.0-3.0","2025-09-04T13:17:16.420Z","1_000015","null","null","rest","","","","","","","","","",""
"","","","","","call-function","7","832020","0.0-3.0-4.0-0.0","2025-09-04T13:17:16.420Z","1_000015","","","","","","","","","","","","",""
"","","","","","survey","8","1076613","0.0-3.0-4.0-1.0","2025-09-04T13:17:16.420Z","1_000015","244463","{""PCIRest1"":4,""PCIRest2"":1,""PCIRest3"":2,""PCIRest4"":5,""PCIRest5"":2,""PCIRest6"":2,""PCIRest7"":1,""PCIRest8"":4,""PCIRest9"":0,""PCIRest10"":5,""PCIRest11"":4,""PCIRest12"":2,""PCIRest13"":2,""PCIIntro"":null}","PCIRest","","","","","","","","","",""
"","","","","","call-function","9","1076615","0.0-3.0-4.0-2.0","2025-09-04T13:17:16.420Z","1_000015","","","","","","","","","","","","",""
"","","","","","instructions","10","1162426","0.0-3.0-5.0","2025-09-04T13:17:16.420Z","1_000015","85810","","instructions1","","","","[{""page_index"":0,""viewing_time"":85809}]","","","","","",""
"","","","","","html-button-response","11","1295019","0.0-3.0-6.0","2025-09-04T13:17:16.420Z","1_000015","132586","0","GanzfeldIntro","<p>Please tell the experimenter to assist you with the Ganzfeld equipment. The experimenter will click ""Continue"" when you are ready to begin.</p>
            <p>The audio level for the ganzfeld can be adjusted while playing the audio sample below.</p>
            <audio controls>
                <source src=""../audio/pinknoise_7min_128.mp3"" type=""audio/mpeg"">
                Your browser does not support the audio element.
            </audio>","","","","","","","","",""
"","","","","","audio-keyboard-response","12","3485144","0.0-3.0-7.0","2025-09-04T13:17:16.420Z","1_000015","null","null","GanzfeldPlay","../audio/English_Ganzfeld_Induction_v4.mp3","","","","","","","","",""
"","","","","","call-function","13","3485146","0.0-3.0-8.0-0.0","2025-09-04T13:17:16.420Z","1_000015","","","","","","","","","","","","",""
"","","","","","survey","14","3849153","0.0-3.0-8.0-1.0","2025-09-04T13:17:16.420Z","1_000015","363880","{""PCIGanz1"":5,""PCIGanz2"":4,""PCIGanz3"":1,""PCIGanz4"":5,""PCIGanz5"":4,""PCIGanz6"":2,""PCIGanz7"":2,""PCIGanz8"":1,""PCIGanz9"":1,""PCIGanz10"":2,""PCIGanz11"":4,""PCIGanz12"":1,""PCIGanz13"":2,""PCIIntro"":null}","PCIGanzfeld","","","","","","","","","",""
"","","","","","call-function","15","3849155","0.0-3.0-8.0-2.0","2025-09-04T13:17:16.420Z","1_000015","","","","","","","","","","","","",""
"","","","","","survey","16","4038213","0.0-3.0-9.0","2025-09-04T13:17:16.420Z","1_000015","189032","{""DSSQ"":{""DSSQ01"":4,""DSSQ02"":2,""DSSQ03"":2,""DSSQ04"":1,""DSSQ05"":3,""DSSQ06"":3,""DSSQ07"":2,""DSSQ08"":2},""DSSQIntro"":null}","DSSQ","","","","","","","","","",""
"","","","","","html-slider-response","17","4047890","0.0-3.0-10.0","2025-09-04T13:17:16.420Z","1_000015","9673","25","time1","<p><i>Please answer the following two questions about your experiences during the 30 minutes of Ganzfeld.</i></p>
            <p>1. How often did you think about time <b>during the task</b>?</p>","50","","","","","","","",""
"","","","","","html-slider-response","18","4055153","0.0-3.0-11.0","2025-09-04T13:17:16.420Z","1_000015","7260","62","time2","<p><i>Please answer the following two questions about your experiences during the 30 minutes of Ganzfeld.</i></p>
            <p>2. How fast did time pass for you <b>during the task</b>?</p>","50","","","","","","","",""
"","","","","","instructions","19","4184010","0.0-4.0","2025-09-04T13:17:16.420Z","1_000015","128855","","instructions2","","","","[{""page_index"":0,""viewing_time"":128854}]","","","","","",""
"","","","","","html-button-response","20","4199034","0.0-5.0","2025-09-04T13:17:16.420Z","1_000015","15021","0","videoIntro","<p>Now we would like you to watch two short videos and rate how similar they are to your Ganzfeld experience.</p><p>Please click ""Continue"" when you are ready.</p>","","","","7","1","2","../video/15 B Lightsabre Duel.mp4","../video/15 C Falling Frogs.mp4",""
"true","false","[]","[]","[]","preload","21","4202700","0.0-6.0","2025-09-04T13:17:16.420Z","1_000015","","","","","","","","","","","","",""
"","","","","","survey-html-form","22","4407682","0.0-7.0-0.0","2025-09-04T13:17:16.420Z","1_000015","204975","{""ClipA"":""14"",""ClipB"":""65""}","videoRating","","","","","","","","","",""
"","","","","","html-button-response","23","4414177","0.0-8.0","2025-09-04T13:17:16.420Z","1_000015","6492","0","videoTargetIntro","<p>We will now select the target video.</p><p>Please watch the selected video a second time.</p>","","","","","","","","","[""../video/15 B Lightsabre Duel.mp4""]"
"","","","","","video-keyboard-response","24","4478537","0.0-9.0","2025-09-04T13:17:16.420Z","1_000015","null","null","videoTarget","[""../video/15 B Lightsabre Duel.mp4""]","","","","","","","","",""
