"success","timeout","failed_images","failed_audio","failed_video","trial_type","trial_index","time_elapsed","internal_node_id","time","subject","rt","response","test_part","stimulus","slider_start","value","view_history","rndSet","rndV1","rndV2","videoA","videoB","videoStimulus"
"true","false","[]","[]","[]","preload","0","33178","0.0-0.0","2025-02-28T09:48:58.081Z","2_5fysv2","","","","","","","","","","","","",""
"","","","","","survey","1","3010585","0.0-1.0","2025-02-28T09:48:58.081Z","2_5fysv2","2977266","{""testrun"":""Experiment""}","testrun","","","","","","","","","",""
"","","","","","survey-text","2","3023790","0.0-2.0","2025-02-28T09:48:58.081Z","2_5fysv2","13102","{""subject_id"":""2_5fysv2""}","welcome","","","","","","","","","",""
"","","","","","html-slider-response","3","3037481","0.0-3.0","2025-02-28T09:48:58.081Z","2_5fysv2","13676","87","successBelief","<p>Before we begin, we would like to ask you about your attitude to the experiment.</p>
            <p style=""font-weight: bold;"">How likely do you think it is that you personally will succeed in your precognitive test today?</p>","50","","","","","","","",""
"","","","","","html-slider-response","4","3042637","0.0-4.0","2025-02-28T09:48:58.081Z","2_5fysv2","5151","100","comfortable","<p style=""font-weight: bold;"">Do you feel comfortable with the Ganzfeld setup?</p>","50","","","","","","","",""
"","","","","","html-button-response","5","3049649","0.0-5.0","2025-02-28T09:48:58.081Z","2_5fysv2","7005","0","restIntro","<p>Next we would like you to rest in a reclining chair for 3 minutes. Press Continue when you are ready, then make yourself comfortable in the chair, and rest until you hear a beep signaling the end of the three minute interval. Afterwards you can return to this program to proceed.</p>","","","","","","","","",""
"","","","","","html-keyboard-response","6","3232290","0.0-6.0","2025-02-28T09:48:58.081Z","2_5fysv2","null","null","rest","","","","","","","","","",""
"","","","","","call-function","7","3232292","0.0-7.0-0.0","2025-02-28T09:48:58.081Z","2_5fysv2","","","","","","","","","","","","",""
"","","","","","survey","8","3436163","0.0-7.0-1.0","2025-02-28T09:48:58.081Z","2_5fysv2","203772","{""PCIRest1"":5,""PCIRest2"":0,""PCIRest3"":6,""PCIRest4"":1,""PCIRest5"":1,""PCIRest6"":6,""PCIRest7"":6,""PCIRest8"":1,""PCIRest9"":3,""PCIRest10"":6,""PCIRest11"":0,""PCIRest12"":1,""PCIRest13"":1,""PCIIntro"":null}","PCIRest","","","","","","","","","",""
"","","","","","call-function","9","3436168","0.0-7.0-2.0","2025-02-28T09:48:58.081Z","2_5fysv2","","","","","","","","","","","","",""
"","","","","","instructions","10","3545313","0.0-8.0","2025-02-28T09:48:58.081Z","2_5fysv2","109140","","instructions1","","","","[{""page_index"":0,""viewing_time"":109139}]","","","","","",""
"","","","","","html-button-response","11","3684866","0.0-9.0","2025-02-28T09:48:58.081Z","2_5fysv2","139540","0","GanzfeldIntro","<p>Please tell the experimenter to assist you with the Ganzfeld equipment. The experimenter will click ""Continue"" when you are ready to begin.</p>
            <p>The audio level for the ganzfeld can be adjusted while playing the audio sample below.</p>
            <audio controls>
                <source src=""../audio/pinknoise_7min_128.mp3"" type=""audio/mpeg"">
                Your browser does not support the audio element.
            </audio>","","","","","","","","",""
"","","","","","audio-keyboard-response","12","5877265","0.0-10.0","2025-02-28T09:48:58.081Z","2_5fysv2","null","null","GanzfeldPlay","../audio/English_Ganzfeld_Induction_v4.mp3","","","","","","","","",""
"","","","","","call-function","13","5877267","0.0-11.0-0.0","2025-02-28T09:48:58.081Z","2_5fysv2","","","","","","","","","","","","",""
"","","","","","survey","14","6163245","0.0-11.0-1.0","2025-02-28T09:48:58.081Z","2_5fysv2","285903","{""PCIGanz1"":6,""PCIGanz2"":2,""PCIGanz3"":2,""PCIGanz4"":5,""PCIGanz5"":5,""PCIGanz6"":2,""PCIGanz7"":1,""PCIGanz8"":0,""PCIGanz9"":1,""PCIGanz10"":0,""PCIGanz11"":5,""PCIGanz12"":5,""PCIGanz13"":5,""PCIIntro"":null}","PCIGanzfeld","","","","","","","","","",""
"","","","","","call-function","15","6163247","0.0-11.0-2.0","2025-02-28T09:48:58.081Z","2_5fysv2","","","","","","","","","","","","",""
"","","","","","survey","16","6219636","0.0-12.0","2025-02-28T09:48:58.081Z","2_5fysv2","56365","{""DSSQ"":{""DSSQ01"":1,""DSSQ02"":1,""DSSQ03"":1,""DSSQ04"":1,""DSSQ05"":1,""DSSQ06"":1,""DSSQ07"":1,""DSSQ08"":1},""DSSQIntro"":null}","DSSQ","","","","","","","","","",""
"","","","","","html-slider-response","17","6231331","0.0-13.0","2025-02-28T09:48:58.081Z","2_5fysv2","11690","2","time1","<p><i>Please answer the following two questions about your experiences during the 30 minutes of Ganzfeld.</i></p>
            <p>1. How often did you think about time <b>during the task</b>?</p>","50","","","","","","","",""
"","","","","","html-slider-response","18","6245570","0.0-14.0","2025-02-28T09:48:58.081Z","2_5fysv2","14234","95","time2","<p><i>Please answer the following two questions about your experiences during the 30 minutes of Ganzfeld.</i></p>
            <p>2. How fast did time pass for you <b>during the task</b>?</p>","50","","","","","","","",""
"","","","","","instructions","19","6519844","0.0-15.0","2025-02-28T09:48:58.081Z","2_5fysv2","274269","","instructions2","","","","[{""page_index"":0,""viewing_time"":274269}]","","","","","",""
"","","","","","html-button-response","20","6542182","0.0-16.0","2025-02-28T09:48:58.081Z","2_5fysv2","22335","0","videoIntro","<p>Now we would like you to watch two short videos and rate how similar they are to your Ganzfeld experience.</p><p>Please click ""Continue"" when you are ready.</p>","","","","7","0","3","../video/15 A City Biking.mp4","../video/15 D Mushroom Taking.mp4",""
"true","false","[]","[]","[]","preload","21","6609336","0.0-17.0","2025-02-28T09:48:58.081Z","2_5fysv2","","","","","","","","","","","","",""
"","","","","","survey-html-form","22","6887008","0.0-18.0-0.0","2025-02-28T09:48:58.081Z","2_5fysv2","277657","{""ClipA"":""10"",""ClipB"":""91""}","videoRating","","","","","","","","","",""
"","","","","","html-button-response","23","6891868","0.0-19.0","2025-02-28T09:48:58.081Z","2_5fysv2","4852","0","videoTargetIntro","<p>We will now select the target video.</p><p>Please watch the selected video a second time.</p>","","","","","","","","","[""../video/15 A City Biking.mp4""]"
"","","","","","video-keyboard-response","24","6955607","0.0-20.0","2025-02-28T09:48:58.081Z","2_5fysv2","null","null","videoTarget","[""../video/15 A City Biking.mp4""]","","","","","","","","",""
