"success","timeout","failed_images","failed_audio","failed_video","trial_type","trial_index","time_elapsed","internal_node_id","time","subject","rt","response","test_part","stimulus","slider_start","value","view_history","rndSet","rndV1","rndV2","videoA","videoB","videoStimulus"
"true","false","[]","[]","[]","preload","0","26210","0.0-0.0","2025-06-23T22:02:25.617Z","4_000006","","","","","","","","","","","","",""
"","","","","","survey","1","177787","0.0-1.0","2025-06-23T22:02:25.617Z","4_000006","151517","{""testrun"":""Experiment""}","testrun","","","","","","","","","",""
"","","","","","survey-text","2","245994","0.0-2.0","2025-06-23T22:02:25.617Z","4_000006","68155","{""subject_id"":""4_000006""}","welcome","","","","","","","","","",""
"","","","","","html-slider-response","3","316929","0.0-3.0-0.0","2025-06-23T22:02:25.617Z","4_000006","70933","59","successBelief","<p>Before we begin, we would like to ask you about your attitude to the experiment.</p>
            <p style=""font-weight: bold;"">How likely do you think it is that you personally will succeed in your precognitive test today?</p>","50","","","","","","","",""
"","","","","","html-slider-response","4","322521","0.0-3.0-1.0","2025-06-23T22:02:25.617Z","4_000006","5590","100","comfortable","<p style=""font-weight: bold;"">Do you feel comfortable with the Ganzfeld setup?</p>","50","","","","","","","",""
"","","","","","html-button-response","5","335785","0.0-3.0-2.0","2025-06-23T22:02:25.617Z","4_000006","13263","0","restIntro","<p>Next we would like you to rest in a reclining chair for 3 minutes. Press Continue when you are ready, then make yourself comfortable in the chair, and rest until you hear a beep signaling the end of the three minute interval. Afterwards you can return to this program to proceed.</p>","","","","","","","","",""
"","","","","","html-keyboard-response","6","518374","0.0-3.0-3.0","2025-06-23T22:02:25.617Z","4_000006","null","null","rest","","","","","","","","","",""
"","","","","","call-function","7","518375","0.0-3.0-4.0-0.0","2025-06-23T22:02:25.617Z","4_000006","","","","","","","","","","","","",""
"","","","","","survey","8","721541","0.0-3.0-4.0-1.0","2025-06-23T22:02:25.617Z","4_000006","203086","{""PCIRest1"":5,""PCIRest2"":3,""PCIRest3"":1,""PCIRest4"":4,""PCIRest5"":4,""PCIRest6"":2,""PCIRest7"":2,""PCIRest8"":2,""PCIRest9"":3,""PCIRest10"":3,""PCIRest11"":2,""PCIRest12"":4,""PCIRest13"":3,""PCIIntro"":null}","PCIRest","","","","","","","","","",""
"","","","","","call-function","9","721542","0.0-3.0-4.0-2.0","2025-06-23T22:02:25.617Z","4_000006","","","","","","","","","","","","",""
"","","","","","instructions","10","800193","0.0-3.0-5.0","2025-06-23T22:02:25.617Z","4_000006","78650","","instructions1","","","","[{""page_index"":0,""viewing_time"":78650}]","","","","","",""
"","","","","","html-button-response","11","993818","0.0-3.0-6.0","2025-06-23T22:02:25.617Z","4_000006","193622","0","GanzfeldIntro","<p>Please tell the experimenter to assist you with the Ganzfeld equipment. The experimenter will click ""Continue"" when you are ready to begin.</p>
            <p>The audio level for the ganzfeld can be adjusted while playing the audio sample below.</p>
            <audio controls>
                <source src=""../audio/pinknoise_7min_128.mp3"" type=""audio/mpeg"">
                Your browser does not support the audio element.
            </audio>","","","","","","","","",""
"","","","","","audio-keyboard-response","12","3183966","0.0-3.0-7.0","2025-06-23T22:02:25.617Z","4_000006","null","null","GanzfeldPlay","../audio/English_Ganzfeld_Induction_v4.mp3","","","","","","","","",""
"","","","","","call-function","13","3183969","0.0-3.0-8.0-0.0","2025-06-23T22:02:25.617Z","4_000006","","","","","","","","","","","","",""
"","","","","","survey","14","3689298","0.0-3.0-8.0-1.0","2025-06-23T22:02:25.617Z","4_000006","505245","{""PCIGanz1"":5,""PCIGanz2"":5,""PCIGanz3"":1,""PCIGanz4"":5,""PCIGanz5"":5,""PCIGanz6"":2,""PCIGanz7"":1,""PCIGanz8"":1,""PCIGanz9"":2,""PCIGanz10"":2,""PCIGanz11"":4,""PCIGanz12"":4,""PCIGanz13"":4,""PCIIntro"":null}","PCIGanzfeld","","","","","","","","","",""
"","","","","","call-function","15","3689299","0.0-3.0-8.0-2.0","2025-06-23T22:02:25.617Z","4_000006","","","","","","","","","","","","",""
"","","","","","survey","16","3769441","0.0-3.0-9.0","2025-06-23T22:02:25.617Z","4_000006","80123","{""DSSQ"":{""DSSQ01"":3,""DSSQ02"":2,""DSSQ03"":1,""DSSQ04"":2,""DSSQ05"":1,""DSSQ06"":2,""DSSQ07"":1,""DSSQ08"":1},""DSSQIntro"":null}","DSSQ","","","","","","","","","",""
"","","","","","html-slider-response","17","3794232","0.0-3.0-10.0","2025-06-23T22:02:25.617Z","4_000006","24789","58","time1","<p><i>Please answer the following two questions about your experiences during the 30 minutes of Ganzfeld.</i></p>
            <p>1. How often did you think about time <b>during the task</b>?</p>","50","","","","","","","",""
"","","","","","html-slider-response","18","3804464","0.0-3.0-11.0","2025-06-23T22:02:25.617Z","4_000006","10230","34","time2","<p><i>Please answer the following two questions about your experiences during the 30 minutes of Ganzfeld.</i></p>
            <p>2. How fast did time pass for you <b>during the task</b>?</p>","50","","","","","","","",""
"","","","","","instructions","19","3919337","0.0-4.0","2025-06-23T22:02:25.617Z","4_000006","114871","","instructions2","","","","[{""page_index"":0,""viewing_time"":114871}]","","","","","",""
"","","","","","html-button-response","20","3929849","0.0-5.0","2025-06-23T22:02:25.617Z","4_000006","10510","0","videoIntro","<p>Now we would like you to watch two short videos and rate how similar they are to your Ganzfeld experience.</p><p>Please click ""Continue"" when you are ready.</p>","","","","12","2","1","../video/20 C The Terror.mp4","../video/20 B Slurm River.mp4",""
"true","false","[]","[]","[]","preload","21","3935668","0.0-6.0","2025-06-23T22:02:25.617Z","4_000006","","","","","","","","","","","","",""
"","","","","","survey-html-form","22","4085858","0.0-7.0-0.0","2025-06-23T22:02:25.617Z","4_000006","150183","{""ClipA"":""45"",""ClipB"":""22""}","videoRating","","","","","","","","","",""
"","","","","","html-button-response","23","4096338","0.0-8.0","2025-06-23T22:02:25.617Z","4_000006","10477","0","videoTargetIntro","<p>We will now select the target video.</p><p>Please watch the selected video a second time.</p>","","","","","","","","","[""../video/20 B Slurm River.mp4""]"
"","","","","","video-keyboard-response","24","4159467","0.0-9.0","2025-06-23T22:02:25.617Z","4_000006","null","null","videoTarget","[""../video/20 B Slurm River.mp4""]","","","","","","","","",""
