"success","timeout","failed_images","failed_audio","failed_video","trial_type","trial_index","time_elapsed","internal_node_id","time","subject","rt","response","test_part","stimulus","slider_start","value","view_history","rndSet","rndV1","rndV2","videoA","videoB","videoStimulus"
"true","false","[]","[]","[]","preload","0","12434","0.0-0.0","2025-11-11T15:42:21.505Z","2_30mfxc","","","","","","","","","","","","",""
"","","","","","survey","1","26422","0.0-1.0","2025-11-11T15:42:21.505Z","2_30mfxc","13945","{""testrun"":""Experiment""}","testrun","","","","","","","","","",""
"","","","","","survey-text","2","34753","0.0-2.0","2025-11-11T15:42:21.505Z","2_30mfxc","8282","{""subject_id"":""2_30mfxc""}","welcome","","","","","","","","","",""
"","","","","","html-slider-response","3","76718","0.0-3.0-0.0","2025-11-11T15:42:21.505Z","2_30mfxc","41961","50","successBelief","<p>Before we begin, we would like to ask you about your attitude to the experiment.</p>
            <p style=""font-weight: bold;"">How likely do you think it is that you personally will succeed in your precognitive test today?</p>","50","","","","","","","",""
"","","","","","html-slider-response","4","83427","0.0-3.0-1.0","2025-11-11T15:42:21.505Z","2_30mfxc","6706","99","comfortable","<p style=""font-weight: bold;"">Do you feel comfortable with the Ganzfeld setup?</p>","50","","","","","","","",""
"","","","","","html-button-response","5","96909","0.0-3.0-2.0","2025-11-11T15:42:21.505Z","2_30mfxc","13480","0","restIntro","<p>Next we would like you to rest in a reclining chair for 3 minutes. Press Continue when you are ready, then make yourself comfortable in the chair, and rest until you hear a beep signaling the end of the three minute interval. Afterwards you can return to this program to proceed.</p>","","","","","","","","",""
"","","","","","html-keyboard-response","6","279422","0.0-3.0-3.0","2025-11-11T15:42:21.505Z","2_30mfxc","null","null","rest","","","","","","","","","",""
"","","","","","call-function","7","279425","0.0-3.0-4.0-0.0","2025-11-11T15:42:21.505Z","2_30mfxc","","","","","","","","","","","","",""
"","","","","","survey","8","564039","0.0-3.0-4.0-1.0","2025-11-11T15:42:21.505Z","2_30mfxc","284522","{""PCIRest1"":4,""PCIRest2"":3,""PCIRest3"":2,""PCIRest4"":2,""PCIRest5"":4,""PCIRest6"":3,""PCIRest7"":3,""PCIRest8"":2,""PCIRest9"":5,""PCIRest10"":2,""PCIRest11"":2,""PCIRest12"":2,""PCIRest13"":3,""PCIIntro"":null}","PCIRest","","","","","","","","","",""
"","","","","","call-function","9","564041","0.0-3.0-4.0-2.0","2025-11-11T15:42:21.505Z","2_30mfxc","","","","","","","","","","","","",""
"","","","","","instructions","10","736346","0.0-3.0-5.0","2025-11-11T15:42:21.505Z","2_30mfxc","172302","","instructions1","","","","[{""page_index"":0,""viewing_time"":172301}]","","","","","",""
"","","","","","html-button-response","11","787220","0.0-3.0-6.0","2025-11-11T15:42:21.505Z","2_30mfxc","50851","0","GanzfeldIntro","<p>Please tell the experimenter to assist you with the Ganzfeld equipment. The experimenter will click ""Continue"" when you are ready to begin.</p>
            <p>The audio level for the ganzfeld can be adjusted while playing the audio sample below.</p>
            <audio controls>
                <source src=""../audio/pinknoise_7min_128.mp3"" type=""audio/mpeg"">
                Your browser does not support the audio element.
            </audio>","","","","","","","","",""
"","","","","","audio-keyboard-response","12","2978283","0.0-3.0-7.0","2025-11-11T15:42:21.505Z","2_30mfxc","null","null","GanzfeldPlay","../audio/English_Ganzfeld_Induction_v4.mp3","","","","","","","","",""
"","","","","","call-function","13","2978285","0.0-3.0-8.0-0.0","2025-11-11T15:42:21.505Z","2_30mfxc","","","","","","","","","","","","",""
"","","","","","survey","14","3723016","0.0-3.0-8.0-1.0","2025-11-11T15:42:21.505Z","2_30mfxc","744634","{""PCIGanz1"":3,""PCIGanz2"":4,""PCIGanz3"":2,""PCIGanz4"":5,""PCIGanz5"":4,""PCIGanz6"":4,""PCIGanz13"":4,""PCIGanz12"":4,""PCIGanz11"":2,""PCIGanz10"":2,""PCIGanz9"":2,""PCIGanz8"":2,""PCIGanz7"":3,""PCIIntro"":null}","PCIGanzfeld","","","","","","","","","",""
"","","","","","call-function","15","3723018","0.0-3.0-8.0-2.0","2025-11-11T15:42:21.505Z","2_30mfxc","","","","","","","","","","","","",""
"","","","","","survey","16","3757053","0.0-3.0-9.0","2025-11-11T15:42:21.505Z","2_30mfxc","33999","{""DSSQ"":{""DSSQ01"":3,""DSSQ02"":4,""DSSQ03"":1,""DSSQ04"":1,""DSSQ05"":3,""DSSQ06"":3,""DSSQ07"":2,""DSSQ08"":1},""DSSQIntro"":null}","DSSQ","","","","","","","","","",""
"","","","","","html-slider-response","17","3770804","0.0-3.0-10.0","2025-11-11T15:42:21.505Z","2_30mfxc","13747","71","time1","<p><i>Please answer the following two questions about your experiences during the 30 minutes of Ganzfeld.</i></p>
            <p>1. How often did you think about time <b>during the task</b>?</p>","50","","","","","","","",""
"","","","","","html-slider-response","18","3785835","0.0-3.0-11.0","2025-11-11T15:42:21.505Z","2_30mfxc","15028","29","time2","<p><i>Please answer the following two questions about your experiences during the 30 minutes of Ganzfeld.</i></p>
            <p>2. How fast did time pass for you <b>during the task</b>?</p>","50","","","","","","","",""
"","","","","","instructions","19","3808317","0.0-4.0","2025-11-11T15:42:21.505Z","2_30mfxc","22481","","instructions2","","","","[{""page_index"":0,""viewing_time"":22480}]","","","","","",""
"","","","","","html-button-response","20","3809991","0.0-5.0","2025-11-11T15:42:21.505Z","2_30mfxc","1671","0","videoIntro","<p>Now we would like you to watch two short videos and rate how similar they are to your Ganzfeld experience.</p><p>Please click ""Continue"" when you are ready.</p>","","","","21","1","0","../video/29 B Chariots of Fire.mp4","../video/29 A Glow worms in motion.mp4",""
"true","false","[]","[]","[]","preload","21","3867200","0.0-6.0","2025-11-11T15:42:21.505Z","2_30mfxc","","","","","","","","","","","","",""
"","","","","","survey-html-form","22","4418294","0.0-7.0-0.0","2025-11-11T15:42:21.505Z","2_30mfxc","551079","{""ClipA"":""35"",""ClipB"":""50""}","videoRating","","","","","","","","","",""
"","","","","","html-button-response","23","4421346","0.0-8.0","2025-11-11T15:42:21.505Z","2_30mfxc","3048","0","videoTargetIntro","<p>We will now select the target video.</p><p>Please watch the selected video a second time.</p>","","","","","","","","","[""../video/29 A Glow worms in motion.mp4""]"
"","","","","","video-keyboard-response","24","4488458","0.0-9.0","2025-11-11T15:42:21.505Z","2_30mfxc","null","null","videoTarget","[""../video/29 A Glow worms in motion.mp4""]","","","","","","","","",""
