"success","timeout","failed_images","failed_audio","failed_video","trial_type","trial_index","time_elapsed","internal_node_id","time","subject","rt","response","test_part","stimulus","slider_start","value","view_history","rndSet","rndV1","rndV2","videoA","videoB","videoStimulus"
"true","false","[]","[]","[]","preload","0","20140","0.0-0.0","2025-10-02T08:20:35.082Z","1_000025","","","","","","","","","","","","",""
"","","","","","survey","1","27504","0.0-1.0","2025-10-02T08:20:35.082Z","1_000025","7217","{""testrun"":""Experiment""}","testrun","","","","","","","","","",""
"","","","","","survey-text","2","81401","0.0-2.0","2025-10-02T08:20:35.082Z","1_000025","53888","{""subject_id"":""1_000025""}","welcome","","","","","","","","","",""
"","","","","","html-slider-response","3","137520","0.0-3.0-0.0","2025-10-02T08:20:35.082Z","1_000025","56114","23","successBelief","<p>Before we begin, we would like to ask you about your attitude to the experiment.</p>
            <p style=""font-weight: bold;"">How likely do you think it is that you personally will succeed in your precognitive test today?</p>","50","","","","","","","",""
"","","","","","html-slider-response","4","162144","0.0-3.0-1.0","2025-10-02T08:20:35.082Z","1_000025","24622","67","comfortable","<p style=""font-weight: bold;"">Do you feel comfortable with the Ganzfeld setup?</p>","50","","","","","","","",""
"","","","","","html-button-response","5","190537","0.0-3.0-2.0","2025-10-02T08:20:35.082Z","1_000025","28390","0","restIntro","<p>Next we would like you to rest in a reclining chair for 3 minutes. Press Continue when you are ready, then make yourself comfortable in the chair, and rest until you hear a beep signaling the end of the three minute interval. Afterwards you can return to this program to proceed.</p>","","","","","","","","",""
"","","","","","html-keyboard-response","6","373054","0.0-3.0-3.0","2025-10-02T08:20:35.082Z","1_000025","null","null","rest","","","","","","","","","",""
"","","","","","call-function","7","373057","0.0-3.0-4.0-0.0","2025-10-02T08:20:35.082Z","1_000025","","","","","","","","","","","","",""
"","","","","","survey","8","468971","0.0-3.0-4.0-1.0","2025-10-02T08:20:35.082Z","1_000025","95787","{""PCIRest1"":4,""PCIRest2"":0,""PCIRest3"":5,""PCIRest4"":4,""PCIRest5"":0,""PCIRest6"":6,""PCIRest7"":5,""PCIRest8"":2,""PCIRest9"":2,""PCIRest10"":6,""PCIRest11"":1,""PCIRest12"":1,""PCIRest13"":0,""PCIIntro"":null}","PCIRest","","","","","","","","","",""
"","","","","","call-function","9","468973","0.0-3.0-4.0-2.0","2025-10-02T08:20:35.082Z","1_000025","","","","","","","","","","","","",""
"","","","","","instructions","10","565305","0.0-3.0-5.0","2025-10-02T08:20:35.082Z","1_000025","96331","","instructions1","","","","[{""page_index"":0,""viewing_time"":96330}]","","","","","",""
"","","","","","html-button-response","11","706777","0.0-3.0-6.0","2025-10-02T08:20:35.082Z","1_000025","141466","0","GanzfeldIntro","<p>Please tell the experimenter to assist you with the Ganzfeld equipment. The experimenter will click ""Continue"" when you are ready to begin.</p>
            <p>The audio level for the ganzfeld can be adjusted while playing the audio sample below.</p>
            <audio controls>
                <source src=""../audio/pinknoise_7min_128.mp3"" type=""audio/mpeg"">
                Your browser does not support the audio element.
            </audio>","","","","","","","","",""
"","","","","","audio-keyboard-response","12","2896919","0.0-3.0-7.0","2025-10-02T08:20:35.082Z","1_000025","null","null","GanzfeldPlay","../audio/English_Ganzfeld_Induction_v4.mp3","","","","","","","","",""
"","","","","","call-function","13","2896921","0.0-3.0-8.0-0.0","2025-10-02T08:20:35.082Z","1_000025","","","","","","","","","","","","",""
"","","","","","survey","14","3509732","0.0-3.0-8.0-1.0","2025-10-02T08:20:35.082Z","1_000025","612720","{""PCIGanz1"":4,""PCIGanz2"":1,""PCIGanz3"":2,""PCIGanz4"":4,""PCIGanz5"":4,""PCIGanz6"":5,""PCIGanz7"":2,""PCIGanz8"":1,""PCIGanz9"":2,""PCIGanz10"":4,""PCIGanz11"":5,""PCIGanz12"":2,""PCIGanz13"":4,""PCIIntro"":null}","PCIGanzfeld","","","","","","","","","",""
"","","","","","call-function","15","3509734","0.0-3.0-8.0-2.0","2025-10-02T08:20:35.082Z","1_000025","","","","","","","","","","","","",""
"","","","","","survey","16","3538895","0.0-3.0-9.0","2025-10-02T08:20:35.082Z","1_000025","29137","{""DSSQ"":{""DSSQ01"":4,""DSSQ02"":3,""DSSQ03"":4,""DSSQ04"":1,""DSSQ05"":2,""DSSQ06"":1,""DSSQ07"":4,""DSSQ08"":1},""DSSQIntro"":null}","DSSQ","","","","","","","","","",""
"","","","","","html-slider-response","17","3545411","0.0-3.0-10.0","2025-10-02T08:20:35.082Z","1_000025","6513","37","time1","<p><i>Please answer the following two questions about your experiences during the 30 minutes of Ganzfeld.</i></p>
            <p>1. How often did you think about time <b>during the task</b>?</p>","50","","","","","","","",""
"","","","","","html-slider-response","18","3549491","0.0-3.0-11.0","2025-10-02T08:20:35.082Z","1_000025","4078","68","time2","<p><i>Please answer the following two questions about your experiences during the 30 minutes of Ganzfeld.</i></p>
            <p>2. How fast did time pass for you <b>during the task</b>?</p>","50","","","","","","","",""
"","","","","","instructions","19","3642979","0.0-4.0","2025-10-02T08:20:35.082Z","1_000025","93486","","instructions2","","","","[{""page_index"":0,""viewing_time"":93486}]","","","","","",""
"","","","","","html-button-response","20","3656243","0.0-5.0","2025-10-02T08:20:35.082Z","1_000025","13261","0","videoIntro","<p>Now we would like you to watch two short videos and rate how similar they are to your Ganzfeld experience.</p><p>Please click ""Continue"" when you are ready.</p>","","","","6","2","0","../video/14 C Car Crash.mp4","../video/14 A The Mist.mp4",""
"true","false","[]","[]","[]","preload","21","3659811","0.0-6.0","2025-10-02T08:20:35.082Z","1_000025","","","","","","","","","","","","",""
"","","","","","survey-html-form","22","4243109","0.0-7.0-0.0","2025-10-02T08:20:35.082Z","1_000025","583286","{""ClipA"":""80"",""ClipB"":""7""}","videoRating","","","","","","","","","",""
"","","","","","html-button-response","23","4262363","0.0-8.0","2025-10-02T08:20:35.082Z","1_000025","19252","0","videoTargetIntro","<p>We will now select the target video.</p><p>Please watch the selected video a second time.</p>","","","","","","","","","[""../video/14 C Car Crash.mp4""]"
"","","","","","video-keyboard-response","24","4327764","0.0-9.0","2025-10-02T08:20:35.082Z","1_000025","null","null","videoTarget","[""../video/14 C Car Crash.mp4""]","","","","","","","","",""
