"success","timeout","failed_images","failed_audio","failed_video","trial_type","trial_index","time_elapsed","internal_node_id","time","subject","rt","response","test_part","stimulus","slider_start","value","view_history","rndSet","rndV1","rndV2","videoA","videoB","videoStimulus"
"true","false","[]","[]","[]","preload","0","60625","0.0-0.0","2024-12-05T15:03:35.586Z","2_tb7q0c","","","","","","","","","","","","",""
"","","","","","survey","1","789403","0.0-1.0","2024-12-05T15:03:35.586Z","2_tb7q0c","728466","{""testrun"":""Experiment""}","testrun","","","","","","","","","",""
"","","","","","survey-text","2","808901","0.0-2.0","2024-12-05T15:03:35.586Z","2_tb7q0c","19404","{""subject_id"":""2_tb7q0c""}","welcome","","","","","","","","","",""
"","","","","","html-slider-response","3","846646","0.0-3.0","2024-12-05T15:03:35.586Z","2_tb7q0c","37731","26","successBelief","<p>Before we begin, we would like to ask you about your attitude to the experiment.</p>
            <p style=""font-weight: bold;"">How likely do you think it is that you personally will succeed in your precognitive test today?</p>","50","","","","","","","",""
"","","","","","html-slider-response","4","851792","0.0-4.0","2024-12-05T15:03:35.586Z","2_tb7q0c","5141","61","comfortable","<p style=""font-weight: bold;"">Do you feel comfortable with the Ganzfeld setup?</p>","50","","","","","","","",""
"","","","","","html-button-response","5","866010","0.0-5.0","2024-12-05T15:03:35.586Z","2_tb7q0c","14212","0","restIntro","<p>Next we would like you to rest in a reclining chair for 3 minutes. Press Continue when you are ready, then make yourself comfortable in the chair, and rest until you hear a beep signaling the end of the three minute interval. Afterwards you can return to this program to proceed.</p>","","","","","","","","",""
"","","","","","html-keyboard-response","6","1048637","0.0-6.0","2024-12-05T15:03:35.586Z","2_tb7q0c","null","null","rest","","","","","","","","","",""
"","","","","","call-function","7","1048638","0.0-7.0-0.0","2024-12-05T15:03:35.586Z","2_tb7q0c","","","","","","","","","","","","",""
"","","","","","survey","8","1281197","0.0-7.0-1.0","2024-12-05T15:03:35.586Z","2_tb7q0c","232468","{""PCIRest1"":3,""PCIRest2"":2,""PCIRest3"":2,""PCIRest4"":2,""PCIRest5"":3,""PCIRest6"":2,""PCIRest7"":2,""PCIRest8"":4,""PCIRest9"":4,""PCIRest10"":4,""PCIRest11"":3,""PCIRest12"":4,""PCIRest13"":2,""PCIIntro"":null}","PCIRest","","","","","","","","","",""
"","","","","","call-function","9","1281203","0.0-7.0-2.0","2024-12-05T15:03:35.586Z","2_tb7q0c","","","","","","","","","","","","",""
"","","","","","instructions","10","1385050","0.0-8.0","2024-12-05T15:03:35.586Z","2_tb7q0c","103843","","instructions1","","","","[{""page_index"":0,""viewing_time"":103841}]","","","","","",""
"","","","","","html-button-response","11","1403321","0.0-9.0","2024-12-05T15:03:35.586Z","2_tb7q0c","18242","0","GanzfeldIntro","<p>Please tell the experimenter to assist you with the Ganzfeld equipment. The experimenter will click ""Continue"" when you are ready to begin.</p>
            <p>The audio level for the ganzfeld can be adjusted while playing the audio sample below.</p>
            <audio controls>
                <source src=""../audio/pinknoise_7min_128.mp3"" type=""audio/mpeg"">
                Your browser does not support the audio element.
            </audio>","","","","","","","","",""
"","","","","","audio-keyboard-response","12","3593839","0.0-10.0","2024-12-05T15:03:35.586Z","2_tb7q0c","null","null","GanzfeldPlay","../audio/English_Ganzfeld_Induction_v4.mp3","","","","","","","","",""
"","","","","","call-function","13","3593844","0.0-11.0-0.0","2024-12-05T15:03:35.586Z","2_tb7q0c","","","","","","","","","","","","",""
"","","","","","survey","14","4057780","0.0-11.0-1.0","2024-12-05T15:03:35.586Z","2_tb7q0c","463701","{""PCIGanz1"":5,""PCIGanz2"":4,""PCIGanz3"":5,""PCIGanz4"":2,""PCIGanz5"":3,""PCIGanz6"":3,""PCIGanz7"":2,""PCIGanz8"":2,""PCIGanz9"":2,""PCIGanz10"":3,""PCIGanz11"":2,""PCIGanz12"":4,""PCIGanz13"":1,""PCIIntro"":null}","PCIGanzfeld","","","","","","","","","",""
"","","","","","call-function","15","4057785","0.0-11.0-2.0","2024-12-05T15:03:35.586Z","2_tb7q0c","","","","","","","","","","","","",""
"","","","","","survey","16","4163388","0.0-12.0","2024-12-05T15:03:35.586Z","2_tb7q0c","105513","{""DSSQ"":{""DSSQ01"":2,""DSSQ02"":3,""DSSQ03"":1,""DSSQ04"":1,""DSSQ05"":2,""DSSQ06"":1,""DSSQ07"":1,""DSSQ08"":1},""DSSQIntro"":null}","DSSQ","","","","","","","","","",""
"","","","","","html-slider-response","17","4174521","0.0-13.0","2024-12-05T15:03:35.586Z","2_tb7q0c","11126","39","time1","<p><i>Please answer the following two questions about your experiences during the 30 minutes of Ganzfeld.</i></p>
            <p>1. How often did you think about time <b>during the task</b>?</p>","50","","","","","","","",""
"","","","","","html-slider-response","18","4181636","0.0-14.0","2024-12-05T15:03:35.586Z","2_tb7q0c","7110","50","time2","<p><i>Please answer the following two questions about your experiences during the 30 minutes of Ganzfeld.</i></p>
            <p>2. How fast did time pass for you <b>during the task</b>?</p>","50","","","","","","","",""
"","","","","","instructions","19","4715847","0.0-15.0","2024-12-05T15:03:35.586Z","2_tb7q0c","534207","","instructions2","","","","[{""page_index"":0,""viewing_time"":534205}]","","","","","",""
"","","","","","html-button-response","20","4719943","0.0-16.0","2024-12-05T15:03:35.586Z","2_tb7q0c","4087","0","videoIntro","<p>Now we would like you to watch two short videos and rate how similar they are to your Ganzfeld experience.</p><p>Please click ""Continue"" when you are ready.</p>","","","","8","3","1","../video/16 D Bubbles.mp4","../video/16 B Cheetah hunt.mp4",""
"true","false","[]","[]","[]","preload","21","4737423","0.0-17.0","2024-12-05T15:03:35.586Z","2_tb7q0c","","","","","","","","","","","","",""
"","","","","","survey-html-form","22","4998437","0.0-18.0-0.0","2024-12-05T15:03:35.586Z","2_tb7q0c","260992","{""ClipA"":""65"",""ClipB"":""78""}","videoRating","","","","","","","","","",""
"","","","","","html-button-response","23","5000708","0.0-19.0","2024-12-05T15:03:35.586Z","2_tb7q0c","2262","0","videoTargetIntro","<p>We will now select the target video.</p><p>Please watch the selected video a second time.</p>","","","","","","","","","[""../video/16 D Bubbles.mp4""]"
