"success","timeout","failed_images","failed_audio","failed_video","trial_type","trial_index","time_elapsed","internal_node_id","time","subject","rt","response","test_part","stimulus","slider_start","value","view_history","rndSet","rndV1","rndV2","videoA","videoB","videoStimulus"
"true","false","[]","[]","[]","preload","0","18889","0.0-0.0","2025-10-09T10:48:30.433Z","1_000026","","","","","","","","","","","","",""
"","","","","","survey","1","32493","0.0-1.0","2025-10-09T10:48:30.433Z","1_000026","13393","{""testrun"":""Experiment""}","testrun","","","","","","","","","",""
"","","","","","survey-text","2","898725","0.0-2.0","2025-10-09T10:48:30.433Z","1_000026","866220","{""subject_id"":""1_000026""}","welcome","","","","","","","","","",""
"","","","","","html-slider-response","3","908147","0.0-3.0-0.0","2025-10-09T10:48:30.433Z","1_000026","9416","56","successBelief","<p>Before we begin, we would like to ask you about your attitude to the experiment.</p>
            <p style=""font-weight: bold;"">How likely do you think it is that you personally will succeed in your precognitive test today?</p>","50","","","","","","","",""
"","","","","","html-slider-response","4","912347","0.0-3.0-1.0","2025-10-09T10:48:30.433Z","1_000026","4198","100","comfortable","<p style=""font-weight: bold;"">Do you feel comfortable with the Ganzfeld setup?</p>","50","","","","","","","",""
"","","","","","html-button-response","5","935364","0.0-3.0-2.0","2025-10-09T10:48:30.433Z","1_000026","23014","0","restIntro","<p>Next we would like you to rest in a reclining chair for 3 minutes. Press Continue when you are ready, then make yourself comfortable in the chair, and rest until you hear a beep signaling the end of the three minute interval. Afterwards you can return to this program to proceed.</p>","","","","","","","","",""
"","","","","","html-keyboard-response","6","1117917","0.0-3.0-3.0","2025-10-09T10:48:30.433Z","1_000026","null","null","rest","","","","","","","","","",""
"","","","","","call-function","7","1117919","0.0-3.0-4.0-0.0","2025-10-09T10:48:30.433Z","1_000026","","","","","","","","","","","","",""
"","","","","","survey","8","1249229","0.0-3.0-4.0-1.0","2025-10-09T10:48:30.433Z","1_000026","131185","{""PCIRest1"":6,""PCIRest2"":6,""PCIRest3"":2,""PCIRest4"":5,""PCIRest5"":4,""PCIRest6"":1,""PCIRest7"":2,""PCIRest8"":2,""PCIRest9"":2,""PCIRest10"":2,""PCIRest11"":3,""PCIRest12"":5,""PCIRest13"":4,""PCIIntro"":null}","PCIRest","","","","","","","","","",""
"","","","","","call-function","9","1249231","0.0-3.0-4.0-2.0","2025-10-09T10:48:30.433Z","1_000026","","","","","","","","","","","","",""
"","","","","","instructions","10","1426732","0.0-3.0-5.0","2025-10-09T10:48:30.433Z","1_000026","177500","","instructions1","","","","[{""page_index"":0,""viewing_time"":177499}]","","","","","",""
"","","","","","html-button-response","11","1554261","0.0-3.0-6.0","2025-10-09T10:48:30.433Z","1_000026","127524","0","GanzfeldIntro","<p>Please tell the experimenter to assist you with the Ganzfeld equipment. The experimenter will click ""Continue"" when you are ready to begin.</p>
            <p>The audio level for the ganzfeld can be adjusted while playing the audio sample below.</p>
            <audio controls>
                <source src=""../audio/pinknoise_7min_128.mp3"" type=""audio/mpeg"">
                Your browser does not support the audio element.
            </audio>","","","","","","","","",""
"","","","","","audio-keyboard-response","12","3744399","0.0-3.0-7.0","2025-10-09T10:48:30.433Z","1_000026","null","null","GanzfeldPlay","../audio/English_Ganzfeld_Induction_v4.mp3","","","","","","","","",""
"","","","","","call-function","13","3744402","0.0-3.0-8.0-0.0","2025-10-09T10:48:30.433Z","1_000026","","","","","","","","","","","","",""
"","","","","","survey","14","3900464","0.0-3.0-8.0-1.0","2025-10-09T10:48:30.433Z","1_000026","155945","{""PCIGanz1"":6,""PCIGanz2"":4,""PCIGanz3"":2,""PCIGanz4"":5,""PCIGanz5"":5,""PCIGanz6"":2,""PCIGanz7"":1,""PCIGanz8"":1,""PCIGanz9"":1,""PCIGanz10"":2,""PCIGanz11"":4,""PCIGanz12"":4,""PCIGanz13"":3,""PCIIntro"":null}","PCIGanzfeld","","","","","","","","","",""
"","","","","","call-function","15","3900465","0.0-3.0-8.0-2.0","2025-10-09T10:48:30.433Z","1_000026","","","","","","","","","","","","",""
"","","","","","survey","16","3952489","0.0-3.0-9.0","2025-10-09T10:48:30.433Z","1_000026","52001","{""DSSQ"":{""DSSQ01"":4,""DSSQ02"":2,""DSSQ03"":2,""DSSQ04"":1,""DSSQ05"":1,""DSSQ06"":4,""DSSQ07"":1,""DSSQ08"":2},""DSSQIntro"":null}","DSSQ","","","","","","","","","",""
"","","","","","html-slider-response","17","3963358","0.0-3.0-10.0","2025-10-09T10:48:30.433Z","1_000026","10865","43","time1","<p><i>Please answer the following two questions about your experiences during the 30 minutes of Ganzfeld.</i></p>
            <p>1. How often did you think about time <b>during the task</b>?</p>","50","","","","","","","",""
"","","","","","html-slider-response","18","3980653","0.0-3.0-11.0","2025-10-09T10:48:30.433Z","1_000026","17294","76","time2","<p><i>Please answer the following two questions about your experiences during the 30 minutes of Ganzfeld.</i></p>
            <p>2. How fast did time pass for you <b>during the task</b>?</p>","50","","","","","","","",""
"","","","","","instructions","19","4061182","0.0-4.0","2025-10-09T10:48:30.433Z","1_000026","80526","","instructions2","","","","[{""page_index"":0,""viewing_time"":80526}]","","","","","",""
"","","","","","html-button-response","20","4073718","0.0-5.0","2025-10-09T10:48:30.433Z","1_000026","12534","0","videoIntro","<p>Now we would like you to watch two short videos and rate how similar they are to your Ganzfeld experience.</p><p>Please click ""Continue"" when you are ready.</p>","","","","20","0","3","../video/28 A St Crispin’s day.mp4","../video/28 D Friendly Penguins.mp4",""
"true","false","[]","[]","[]","preload","21","4084420","0.0-6.0","2025-10-09T10:48:30.433Z","1_000026","","","","","","","","","","","","",""
"","","","","","survey-html-form","22","4267271","0.0-7.0-0.0","2025-10-09T10:48:30.433Z","1_000026","182842","{""ClipA"":""74"",""ClipB"":""42""}","videoRating","","","","","","","","","",""
"","","","","","html-button-response","23","4272638","0.0-8.0","2025-10-09T10:48:30.433Z","1_000026","5364","0","videoTargetIntro","<p>We will now select the target video.</p><p>Please watch the selected video a second time.</p>","","","","","","","","","[""../video/28 A St Crispin’s day.mp4""]"
"","","","","","video-keyboard-response","24","4338275","0.0-9.0","2025-10-09T10:48:30.433Z","1_000026","null","null","videoTarget","[""../video/28 A St Crispin’s day.mp4""]","","","","","","","","",""
