"success","timeout","failed_images","failed_audio","failed_video","trial_type","trial_index","time_elapsed","internal_node_id","time","subject","rt","response","test_part","stimulus","slider_start","value","view_history","rndSet","rndV1","rndV2","videoA","videoB","videoStimulus"
"true","false","[]","[]","[]","preload","0","13642","0.0-0.0","2024-09-18T17:00:24.106Z","3_654321","","","","","","","","","","","","",""
"","","","","","survey","1","22189","0.0-1.0","2024-09-18T17:00:24.106Z","3_654321","8482","{""testrun"":""Pilot (Test run)""}","testrun","","","","","","","","","",""
"","","","","","survey-text","2","24031","0.0-2.0","2024-09-18T17:00:24.106Z","3_654321","1820","{""subject_id"":""3_654321""}","welcome","","","","","","","","","",""
"","","","","","html-slider-response","3","25242","0.0-3.0","2024-09-18T17:00:24.106Z","3_654321","1208","65","successBelief","<p>Before we begin, we would like to ask you about your attitude to the experiment.</p>
            <p style=""font-weight: bold;"">How likely do you think it is that you personally will succeed in your precognitive test today?</p>","50","","","","","","","",""
"","","","","","html-slider-response","4","26565","0.0-4.0","2024-09-18T17:00:24.106Z","3_654321","1321","56","comfortable","<p style=""font-weight: bold;"">Do you feel comfortable with the Ganzfeld setup?</p>","50","","","","","","","",""
"","","","","","html-button-response","5","27148","0.0-5.0","2024-09-18T17:00:24.106Z","3_654321","580","0","restIntro","<p>Next we would like you to rest in a reclining chair for 3 minutes. Press Continue when you are ready, then make yourself comfortable in the chair, and rest until you hear a beep signaling the end of the three minute interval. Afterwards you can return to this program to proceed.</p>","","","","","","","","",""
"","","","","","html-keyboard-response","6","209666","0.0-6.0","2024-09-18T17:00:24.106Z","3_654321","null","null","rest","","","","","","","","","",""
"","","","","","call-function","7","209671","0.0-7.0-0.0","2024-09-18T17:00:24.106Z","3_654321","","","","","","","","","","","","",""
"","","","","","survey","8","223854","0.0-7.0-1.0","2024-09-18T17:00:24.106Z","3_654321","14092","{""PCIRest1"":3,""PCIRest2"":4,""PCIRest3"":2,""PCIRest4"":5,""PCIRest5"":2,""PCIRest6"":5,""PCIRest7"":2,""PCIRest8"":4,""PCIRest9"":2,""PCIRest10"":4,""PCIRest11"":2,""PCIRest12"":4,""PCIRest13"":3,""PCIIntro"":null}","PCIRest","","","","","","","","","",""
"","","","","","call-function","9","223856","0.0-7.0-2.0","2024-09-18T17:00:24.106Z","3_654321","","","","","","","","","","","","",""
"","","","","","instructions","10","316398","0.0-8.0","2024-09-18T17:00:24.106Z","3_654321","92539","","instructions1","","","","[{""page_index"":0,""viewing_time"":92538}]","","","","","",""
"","","","","","html-button-response","11","317332","0.0-9.0","2024-09-18T17:00:24.106Z","3_654321","930","0","GanzfeldIntro","<p>Please tell the experimenter to assist you with the Ganzfeld equipment. The experimenter will click ""Continue"" when you are ready to begin.</p>
            <p>The audio level for the ganzfeld can be adjusted while playing the audio sample below.</p>
            <audio controls>
                <source src=""../audio/pinknoise_7min_128.mp3"" type=""audio/mpeg"">
                Your browser does not support the audio element.
            </audio>","","","","","","","","",""
"","","","","","audio-keyboard-response","12","2507464","0.0-10.0","2024-09-18T17:00:24.106Z","3_654321","null","null","GanzfeldPlay","../audio/English_Ganzfeld_Induction_v4.mp3","","","","","","","","",""
"","","","","","call-function","13","2507471","0.0-11.0-0.0","2024-09-18T17:00:24.106Z","3_654321","","","","","","","","","","","","",""
"","","","","","survey","14","2656162","0.0-11.0-1.0","2024-09-18T17:00:24.106Z","3_654321","148573","{""PCIGanz1"":2,""PCIGanz2"":3,""PCIGanz3"":4,""PCIGanz4"":2,""PCIGanz5"":4,""PCIGanz6"":2,""PCIGanz7"":4,""PCIGanz8"":1,""PCIGanz9"":5,""PCIGanz10"":2,""PCIGanz11"":5,""PCIGanz12"":2,""PCIGanz13"":5,""PCIIntro"":null}","PCIGanzfeld","","","","","","","","","",""
"","","","","","call-function","15","2656164","0.0-11.0-2.0","2024-09-18T17:00:24.106Z","3_654321","","","","","","","","","","","","",""
"","","","","","survey","16","2668238","0.0-12.0","2024-09-18T17:00:24.106Z","3_654321","12047","{""DSSQ"":{""DSSQ01"":1,""DSSQ02"":2,""DSSQ03"":3,""DSSQ04"":4,""DSSQ05"":5,""DSSQ06"":4,""DSSQ07"":3,""DSSQ08"":2},""DSSQIntro"":null}","DSSQ","","","","","","","","","",""
"","","","","","html-slider-response","17","2673517","0.0-13.0","2024-09-18T17:00:24.106Z","3_654321","5277","59","time1","<p><i>Please answer the following two questions about your experiences during the 30 minutes of Ganzfeld.</i></p>
            <p>1. How often did you think about time <b>during the task</b>?</p>","50","","","","","","","",""
"","","","","","html-slider-response","18","2676032","0.0-14.0","2024-09-18T17:00:24.106Z","3_654321","2513","40","time2","<p><i>Please answer the following two questions about your experiences during the 30 minutes of Ganzfeld.</i></p>
            <p>2. How fast did time pass for you <b>during the task</b>?</p>","50","","","","","","","",""
"","","","","","instructions","19","3092516","0.0-15.0","2024-09-18T17:00:24.106Z","3_654321","416482","","instructions2","","","","[{""page_index"":0,""viewing_time"":416480}]","","","","","",""
"","","","","","html-button-response","20","3093321","0.0-16.0","2024-09-18T17:00:24.106Z","3_654321","803","0","videoIntro","<p>Now we would like you to watch two short videos and rate how similar they are to your Ganzfeld experience.</p><p>Please click ""Continue"" when you are ready.</p>","","","","20","2","0","../video/28 C The Cantina.mp4","../video/28 A St Crispin’s day.mp4",""
"true","false","[]","[]","[]","preload","21","3102360","0.0-17.0","2024-09-18T17:00:24.106Z","3_654321","","","","","","","","","","","","",""
"","","","","","survey-html-form","22","3169839","0.0-18.0-0.0","2024-09-18T17:00:24.106Z","3_654321","67476","{""ClipA"":""88"",""ClipB"":""25""}","videoRating","","","","","","","","","",""
"","","","","","html-button-response","23","3170936","0.0-19.0","2024-09-18T17:00:24.106Z","3_654321","1094","0","videoTargetIntro","<p>We will now select the target video.</p><p>Please watch the selected video a second time.</p>","","","","","","","","","[""../video/28 C The Cantina.mp4""]"
"","","","","","video-keyboard-response","24","3604496","0.0-20.0","2024-09-18T17:00:24.106Z","3_654321","null","null","videoTarget","[""../video/28 C The Cantina.mp4""]","","","","","","","","",""
